date	script.currenttime	subject	blockcode	trialcode	posttrialpause	script.elapsedtime	response	correct	latency	stimulusitem1
022619	16:03:22	90	studyblock5	nextlistmessage	1000	18380	0	0	1500	* * * * LIST 1 * * * *
022619	16:03:53	90	studyblock5	studytrial5	0	49377	0	0	29500	musiclist.wav
022619	16:03:56	90	studyblock6	nextlistmessage	1000	52010	0	0	1500	* * * * LIST 2 * * * *
022619	16:04:27	90	studyblock6	studytrial6	0	83008	0	0	29500	slowlist.wav
022619	16:04:30	90	studyblock7	nextlistmessage	1000	85641	0	0	1500	* * * * LIST 3 * * * *
022619	16:05:01	90	studyblock7	studytrial7	0	116638	0	0	29500	softlist.wav
022619	16:05:03	90	studyblock3	nextlistmessage	1000	119271	0	0	1500	* * * * LIST 4 * * * *
022619	16:05:34	90	studyblock3	studytrial3	0	150268	0	0	29500	chairlist.wav
022619	16:05:37	90	studyblock4	nextlistmessage	1000	152901	0	0	1500	* * * * LIST 5 * * * *
022619	16:06:08	90	studyblock4	studytrial4	0	183898	0	0	29500	mountainlist.wav
022619	16:06:10	90	studyblock8	nextlistmessage	1000	186531	0	0	1500	* * * * LIST 6 * * * *
022619	16:06:41	90	studyblock8	studytrial8	0	217528	0	0	29500	smelllist.wav
022619	16:06:44	90	studyblock2	nextlistmessage	1000	220162	0	0	1500	* * * * LIST 7 * * * *
022619	16:07:15	90	studyblock2	studytrial2	0	251159	0	0	29500	doctorlist.wav
022619	16:07:18	90	studyblock1	nextlistmessage	1000	253792	0	0	1500	* * * * LIST 8 * * * *
022619	16:07:49	90	studyblock1	studytrial1	0	284789	0	0	29500	angerlist.wav
022619	16:08:19	90	RecognitionPhase1	studieditem	5000	315386	44	1	3824	z = old                                    / = new
022619	16:08:59	90	RecognitionPhase1	list1likert	0	355099	65	0	34603	hear
022619	16:09:01	90	RecognitionPhase1	nonstudieditem	5000	357382	53	1	2188	z = old                                    / = new
022619	16:09:13	90	RecognitionPhase1	list2likert	0	369081	75	0	6589	boy
022619	16:09:17	90	RecognitionPhase1	studieditem	5000	372647	53	0	3479	z = old                                    / = new
022619	16:09:27	90	RecognitionPhase1	list1likert	0	382680	60	0	4924	office
022619	16:09:29	90	RecognitionPhase1	nonstudieditem	5000	385163	53	1	2383	z = old                                    / = new
022619	16:09:40	90	RecognitionPhase1	list2likert	0	395895	45	0	5622	water
022619	16:09:42	90	RecognitionPhase1	studieditem	5000	398295	44	1	2311	z = old                                    / = new
022619	16:09:52	90	RecognitionPhase1	list1likert	0	408178	100	0	4757	speed
022619	16:09:54	90	RecognitionPhase1	relatedlure	5000	410411	44	0	2144	z = old                                    / = new
022619	16:10:06	90	RecognitionPhase1	lureslikert	0	421626	100	0	6122	anger
022619	16:10:07	90	RecognitionPhase1	nonstudieditem	5000	423043	53	1	1327	z = old                                    / = new
022619	16:10:17	90	RecognitionPhase1	list2likert	0	432792	50	0	4631	thread
022619	16:10:20	90	RecognitionPhase1	studieditem	5000	436058	53	0	3165	z = old                                    / = new
022619	16:10:29	90	RecognitionPhase1	list1likert	0	445091	45	0	3917	bike
022619	16:10:33	90	RecognitionPhase1	relatedlure	5000	448757	44	0	3568	z = old                                    / = new
022619	16:10:41	90	RecognitionPhase1	lureslikert	0	457206	35	0	3331	chair
022619	16:10:43	90	RecognitionPhase1	nonstudieditem	5000	458590	53	1	1287	z = old                                    / = new
022619	16:10:51	90	RecognitionPhase1	list2likert	0	466989	85	0	3290	villain
022619	16:10:54	90	RecognitionPhase1	relatedlure	5000	469972	44	0	2890	z = old                                    / = new
022619	16:11:01	90	RecognitionPhase1	lureslikert	0	477004	70	0	1922	mountain
022619	16:11:03	90	RecognitionPhase1	nonstudieditem	5000	478738	53	1	1634	z = old                                    / = new
022619	16:11:14	90	RecognitionPhase1	list2likert	0	490487	65	0	6633	dream
022619	16:11:16	90	RecognitionPhase1	nonstudieditem	5000	491803	53	1	1221	z = old                                    / = new
022619	16:11:24	90	RecognitionPhase1	list2likert	0	499936	70	0	3016	woman
022619	16:11:25	90	RecognitionPhase1	nonstudieditem	5000	501219	53	1	1184	z = old                                    / = new
022619	16:11:33	90	RecognitionPhase1	list2likert	0	509402	75	0	3066	fly
022619	16:11:39	90	RecognitionPhase1	nonstudieditem	5000	514884	53	1	5390	z = old                                    / = new
022619	16:11:50	90	RecognitionPhase1	list2likert	0	526000	40	0	5996	snore
022619	16:11:57	90	RecognitionPhase1	nonstudieditem	5000	533116	53	1	7020	z = old                                    / = new
022619	16:12:05	90	RecognitionPhase1	list2likert	0	541032	35	0	2800	web
022619	16:12:07	90	RecognitionPhase1	nonstudieditem	5000	542965	44	0	1847	z = old                                    / = new
022619	16:12:16	90	RecognitionPhase1	list2likert	0	552431	35	0	4336	person
022619	16:12:23	90	RecognitionPhase1	nonstudieditem	5000	558797	44	0	6276	z = old                                    / = new
022619	16:12:31	90	RecognitionPhase1	list2likert	0	567396	45	0	3484	steal
022619	16:12:33	90	RecognitionPhase1	nonstudieditem	5000	568646	53	1	1162	z = old                                    / = new
022619	16:12:41	90	RecognitionPhase1	list2likert	0	576845	65	0	3081	hurt
022619	16:12:43	90	RecognitionPhase1	nonstudieditem	5000	579262	44	0	2317	z = old                                    / = new
022619	16:12:51	90	RecognitionPhase1	list2likert	0	587378	65	0	3001	bed
022619	16:12:55	90	RecognitionPhase1	studieditem	5000	591294	44	1	3824	z = old                                    / = new
022619	16:13:03	90	RecognitionPhase1	list1likert	0	599210	100	0	2805	nose
022619	16:13:05	90	RecognitionPhase1	nonstudieditem	5000	600743	53	1	1445	z = old                                    / = new
022619	16:13:12	90	RecognitionPhase1	list2likert	0	608493	70	0	2643	money
022619	16:13:14	90	RecognitionPhase1	relatedlure	5000	609992	53	1	1411	z = old                                    / = new
022619	16:13:23	90	RecognitionPhase1	lureslikert	0	619441	35	0	4330	music
022619	16:13:28	90	RecognitionPhase1	nonstudieditem	5000	624091	53	1	4562	z = old                                    / = new
022619	16:13:36	90	RecognitionPhase1	list2likert	0	632490	40	0	3293	creepy
022619	16:13:39	90	RecognitionPhase1	studieditem	5000	634840	44	1	2255	z = old                                    / = new
022619	16:13:48	90	RecognitionPhase1	list1likert	0	643606	100	0	3647	mad
022619	16:13:49	90	RecognitionPhase1	relatedlure	5000	645522	44	0	1826	z = old                                    / = new
022619	16:13:57	90	RecognitionPhase1	lureslikert	0	653005	90	0	2370	smell
022619	16:14:00	90	RecognitionPhase1	studieditem	5000	655988	44	1	2886	z = old                                    / = new
022619	16:14:08	90	RecognitionPhase1	list1likert	0	663904	40	0	2802	radio
022619	16:14:10	90	RecognitionPhase1	nonstudieditem	5000	665671	53	1	1680	z = old                                    / = new
022619	16:14:18	90	RecognitionPhase1	list2likert	0	673786	35	0	2988	creek
022619	16:14:21	90	RecognitionPhase1	studieditem	5000	676669	44	1	2796	z = old                                    / = new
022619	16:14:28	90	RecognitionPhase1	list1likert	0	683752	75	0	1970	symphony
022619	16:14:29	90	RecognitionPhase1	nonstudieditem	5000	685052	53	1	1212	z = old                                    / = new
022619	16:14:36	90	RecognitionPhase1	list2likert	0	691768	70	0	1606	dress
022619	16:14:40	90	RecognitionPhase1	studieditem	5000	696468	44	1	4608	z = old                                    / = new
022619	16:14:49	90	RecognitionPhase1	list1likert	0	704567	25	0	2983	health
022619	16:14:50	90	RecognitionPhase1	studieditem	5000	706017	44	1	1352	z = old                                    / = new
022619	16:14:58	90	RecognitionPhase1	list1likert	0	713949	90	0	2827	furry
022619	16:14:59	90	RecognitionPhase1	relatedlure	5000	715282	44	0	1241	z = old                                    / = new
022619	16:15:07	90	RecognitionPhase1	lureslikert	0	723498	85	0	3095	soft
022619	16:15:10	90	RecognitionPhase1	nonstudieditem	5000	726215	44	0	2627	z = old                                    / = new
022619	16:15:21	90	RecognitionPhase1	list2likert	0	737397	20	0	6066	mouse
022619	16:15:24	90	RecognitionPhase1	studieditem	5000	739614	53	0	2117	z = old                                    / = new
022619	16:15:32	90	RecognitionPhase1	list1likert	0	747646	90	0	2916	swivel
022619	16:15:34	90	RecognitionPhase1	studieditem	5000	750096	53	0	2358	z = old                                    / = new
022619	16:15:41	90	RecognitionPhase1	list1likert	0	757112	80	0	1910	hatred
022619	16:15:45	90	RecognitionPhase1	studieditem	5000	761262	53	0	4062	z = old                                    / = new
022619	16:15:52	90	RecognitionPhase1	list1likert	0	768378	75	0	2003	top
022619	16:15:55	90	RecognitionPhase1	nonstudieditem	5000	771277	53	1	2804	z = old                                    / = new
022619	16:16:03	90	RecognitionPhase1	list2likert	0	779043	65	0	2659	boat
022619	16:16:04	90	RecognitionPhase1	studieditem	5000	780543	44	1	1406	z = old                                    / = new
022619	16:16:12	90	RecognitionPhase1	list1likert	0	788542	100	0	2878	temper
022619	16:16:14	90	RecognitionPhase1	studieditem	5000	790375	44	1	1742	z = old                                    / = new
022619	16:16:22	90	RecognitionPhase1	list1likert	0	798291	80	0	2800	hill
022619	16:16:24	90	RecognitionPhase1	nonstudieditem	5000	799758	44	0	1366	z = old                                    / = new
022619	16:16:31	90	RecognitionPhase1	list2likert	0	806991	70	0	2124	boot
022619	16:16:32	90	RecognitionPhase1	nonstudieditem	5000	808307	53	1	1221	z = old                                    / = new
022619	16:16:40	90	RecognitionPhase1	list2likert	0	815973	35	0	2549	sandals
022619	16:16:43	90	RecognitionPhase1	relatedlure	5000	819439	44	0	3376	z = old                                    / = new
022619	16:16:52	90	RecognitionPhase1	lureslikert	0	828055	15	0	3494	slow
022619	16:16:54	90	RecognitionPhase1	nonstudieditem	5000	829872	44	0	1729	z = old                                    / = new
022619	16:17:01	90	RecognitionPhase1	list2likert	0	836788	40	0	1807	shoe
022619	16:17:03	90	RecognitionPhase1	studieditem	5000	838788	44	1	1907	z = old                                    / = new
022619	16:17:11	90	RecognitionPhase1	list1likert	0	846604	55	0	2698	hard
022619	16:17:12	90	RecognitionPhase1	studieditem	5000	848403	53	0	1707	z = old                                    / = new
022619	16:17:19	90	RecognitionPhase1	list1likert	0	855536	80	0	2023	stench
022619	16:17:21	90	RecognitionPhase1	studieditem	5000	856903	53	0	1270	z = old                                    / = new
022619	16:17:28	90	RecognitionPhase1	list1likert	0	864369	80	0	2346	snail
022619	16:17:30	90	RecognitionPhase1	studieditem	5000	865602	53	0	1132	z = old                                    / = new
022619	16:17:37	90	RecognitionPhase1	list1likert	0	872901	75	0	2187	note
022619	16:17:38	90	RecognitionPhase1	nonstudieditem	5000	874268	53	1	1267	z = old                                    / = new
022619	16:17:46	90	RecognitionPhase1	list2likert	0	882484	80	0	3103	cute
022619	16:17:48	90	RecognitionPhase1	studieditem	5000	884400	44	1	1830	z = old                                    / = new
022619	16:17:56	90	RecognitionPhase1	list1likert	0	891566	75	0	2034	nurse
022619	16:17:57	90	RecognitionPhase1	relatedlure	5000	893349	53	1	1683	z = old                                    / = new
022619	16:18:05	90	RecognitionPhase1	lureslikert	0	901049	75	0	2589	doctor
022619	16:18:09	90	RecognitionPhase1	nonstudieditem	5000	904882	44	0	3745	z = old                                    / = new
022619	16:18:16	90	RecognitionPhase1	list2likert	0	912081	25	0	2080	sharp
022619	16:18:19	90	RecognitionPhase1	studieditem	5000	914647	44	1	2467	z = old                                    / = new
022619	16:18:25	90	RecognitionPhase1	list1likert	0	921530	25	0	1774	table
022619	16:18:29	90	RecognitionPhase1	studieditem	5000	925313	44	1	3691	z = old                                    / = new
022619	16:18:37	90	RecognitionPhase1	list1likert	0	932846	15	0	2414	couch
022619	16:18:42	90	RecognitionPhase1	studieditem	5000	938112	53	0	5172	z = old                                    / = new
022619	16:18:49	90	RecognitionPhase1	list1likert	0	945078	75	0	1844	fast
022619	16:18:55	90	RecognitionPhase1	studieditem	5000	951527	53	0	6362	z = old                                    / = new
022619	16:19:03	90	RecognitionPhase1	list1likert	0	958743	75	0	2085	loud
022619	16:19:37	90	studyblock15	nextlistmessage2	1000	993057	0	0	1500	* * * * LIST 1 * * * *
022619	16:19:43	90	studyblock15	windowluremessage	1000	999056	0	0	4500	critical lure:
022619	16:20:14	90	studyblock15	studytrial15	0	1030053	0	0	29500	windowlist.wav
022619	16:20:22	90	studyblock15	listitems8	5000	1037653	53	1	7500	z = old                                    / = new
022619	16:20:30	90	studyblock15	listitems8	5000	1046519	53	1	3811	z = old                                    / = new
022619	16:20:38	90	studyblock15	listitems8	5000	1053851	53	1	2279	z = old                                    / = new
022619	16:20:52	90	studyblock15	lures8	5000	1068050	44	1	9145	z = old                                    / = new
022619	16:20:59	90	studyblock15	nonlistitems8	5000	1075449	53	0	2340	z = old                                    / = new
022619	16:21:08	90	studyblock15	nonlistitems8	5000	1083732	53	0	3216	z = old                                    / = new
022619	16:21:14	90	studyblock15	nonlistitems8	5000	1089731	53	0	946	z = old                                    / = new
022619	16:21:21	90	studyblock10	nextlistmessage2	1000	1097330	0	0	1500	* * * * LIST 2 * * * *
022619	16:21:27	90	studyblock10	cupluremessage	1000	1103330	0	0	4500	critical lure:
022619	16:21:58	90	studyblock10	studytrial10	0	1134327	0	0	29500	cuplist.wav
022619	16:22:01	90	studyblock10	nonlistitems3	5000	1137343	53	0	2930	z = old                                    / = new
022619	16:22:08	90	studyblock10	nonlistitems3	5000	1144226	53	0	1822	z = old                                    / = new
022619	16:22:14	90	studyblock10	nonlistitems3	5000	1150242	53	0	954	z = old                                    / = new
022619	16:22:21	90	studyblock10	listitems3	5000	1156725	44	0	1421	z = old                                    / = new
022619	16:22:27	90	studyblock10	lures3	5000	1163158	44	1	1370	z = old                                    / = new
022619	16:22:33	90	studyblock10	listitems3	5000	1169324	44	0	1105	z = old                                    / = new
022619	16:22:40	90	studyblock10	listitems3	5000	1175890	44	0	1514	z = old                                    / = new
022619	16:22:47	90	studyblock16	nextlistmessage2	1000	1183489	0	0	1500	* * * * LIST 3 * * * *
022619	16:22:53	90	studyblock16	smokeluremessage	1000	1189489	0	0	4500	critical lure:
022619	16:23:24	90	studyblock16	studytrial16	0	1220486	0	0	29500	smokelist.wav
022619	16:23:27	90	studyblock16	lures9	5000	1223502	44	1	2920	z = old                                    / = new
022619	16:23:34	90	studyblock16	nonlistitems9	5000	1230118	53	0	1562	z = old                                    / = new
022619	16:23:40	90	studyblock16	nonlistitems9	5000	1236251	53	0	1077	z = old                                    / = new
022619	16:23:50	90	studyblock16	listitems9	5000	1246033	53	1	4718	z = old                                    / = new
022619	16:23:56	90	studyblock16	listitems9	5000	1252066	44	0	971	z = old                                    / = new
022619	16:24:03	90	studyblock16	listitems9	5000	1259299	53	1	2181	z = old                                    / = new
022619	16:24:09	90	studyblock16	nonlistitems9	5000	1265482	53	0	1109	z = old                                    / = new
022619	16:24:17	90	studyblock12	nextlistmessage2	1000	1273081	0	0	1500	* * * * LIST 4 * * * *
022619	16:24:23	90	studyblock12	trashluremessage	1000	1279080	0	0	4500	critical lure:
022619	16:24:54	90	studyblock12	studytrial12	0	1310077	0	0	29500	trashlist.wav
022619	16:24:56	90	studyblock12	nonlistitems5	5000	1312494	53	0	2332	z = old                                    / = new
022619	16:25:03	90	studyblock12	lures5	5000	1319244	44	1	1680	z = old                                    / = new
022619	16:25:10	90	studyblock12	listitems5	5000	1326043	44	0	1743	z = old                                    / = new
022619	16:25:17	90	studyblock12	listitems5	5000	1332692	44	0	1594	z = old                                    / = new
022619	16:25:23	90	studyblock12	nonlistitems5	5000	1339158	53	0	1404	z = old                                    / = new
022619	16:25:30	90	studyblock12	listitems5	5000	1345874	44	0	1660	z = old                                    / = new
022619	16:25:36	90	studyblock12	nonlistitems5	5000	1352124	53	0	1198	z = old                                    / = new
022619	16:25:44	90	studyblock11	nextlistmessage2	1000	1359740	0	0	1500	* * * * LIST 5 * * * *
022619	16:25:50	90	studyblock11	highluremessage	1000	1365739	0	0	4500	critical lure:
022619	16:26:21	90	studyblock11	studytrial11	0	1396736	0	0	29500	highlist.wav
022619	16:26:25	90	studyblock11	listitems4	5000	1401136	53	1	4301	z = old                                    / = new
022619	16:26:31	90	studyblock11	nonlistitems4	5000	1407485	53	0	1287	z = old                                    / = new
022619	16:26:38	90	studyblock11	nonlistitems4	5000	1413668	53	0	1118	z = old                                    / = new
022619	16:26:47	90	studyblock11	listitems4	5000	1423417	53	1	4682	z = old                                    / = new
022619	16:26:54	90	studyblock11	lures4	5000	1429800	44	1	1319	z = old                                    / = new
022619	16:27:01	90	studyblock11	listitems4	5000	1436599	44	0	1745	z = old                                    / = new
022619	16:27:08	90	studyblock11	nonlistitems4	5000	1443698	53	0	2041	z = old                                    / = new
022619	16:27:15	90	studyblock9	nextlistmessage2	1000	1451298	0	0	1500	* * * * LIST 6 * * * *
022619	16:27:21	90	studyblock9	coldluremessage	1000	1457297	0	0	4500	critical lure:
022619	16:27:52	90	studyblock9	studytrial9	0	1488294	0	0	29500	coldlist.wav
022619	16:27:55	90	studyblock9	nonlistitems2	5000	1491361	53	0	2973	z = old                                    / = new
022619	16:28:02	90	studyblock9	lures2	5000	1498027	44	1	1609	z = old                                    / = new
022619	16:28:08	90	studyblock9	nonlistitems2	5000	1503976	53	0	889	z = old                                    / = new
022619	16:28:15	90	studyblock9	nonlistitems2	5000	1511025	53	0	1986	z = old                                    / = new
022619	16:28:21	90	studyblock9	listitems2	5000	1517342	44	0	1251	z = old                                    / = new
022619	16:28:28	90	studyblock9	listitems2	5000	1524108	44	0	1703	z = old                                    / = new
022619	16:28:34	90	studyblock9	listitems2	5000	1529974	44	0	803	z = old                                    / = new
022619	16:28:42	90	studyblock13	nextlistmessage2	1000	1537573	0	0	1500	* * * * LIST 7 * * * *
022619	16:28:48	90	studyblock13	roughluremessage	1000	1543572	0	0	4500	critical lure:
022619	16:29:19	90	studyblock13	studytrial13	0	1574570	0	0	29500	roughlist.wav
022619	16:29:21	90	studyblock13	nonlistitems6	5000	1576586	53	0	1929	z = old                                    / = new
022619	16:29:27	90	studyblock13	listitems6	5000	1583219	44	0	1567	z = old                                    / = new
022619	16:29:33	90	studyblock13	nonlistitems6	5000	1589068	53	0	787	z = old                                    / = new
022619	16:29:39	90	studyblock13	listitems6	5000	1595351	44	0	1222	z = old                                    / = new
022619	16:29:45	90	studyblock13	listitems6	5000	1601284	44	0	882	z = old                                    / = new
022619	16:29:51	90	studyblock13	lures6	5000	1607217	44	1	861	z = old                                    / = new
022619	16:29:57	90	studyblock13	nonlistitems6	5000	1613316	53	0	1035	z = old                                    / = new
022619	16:30:05	90	studyblock14	nextlistmessage2	1000	1620915	0	0	1500	* * * * LIST 8 * * * *
022619	16:30:11	90	studyblock14	sweetluremessage	1000	1626915	0	0	4500	critical lure:
022619	16:30:42	90	studyblock14	studytrial14	0	1657912	0	0	29500	sweetlist.wav
022619	16:30:44	90	studyblock14	nonlistitems7	5000	1660528	53	0	2523	z = old                                    / = new
022619	16:30:50	90	studyblock14	listitems7	5000	1666478	53	1	886	z = old                                    / = new
022619	16:30:57	90	studyblock14	listitems7	5000	1673061	44	0	1531	z = old                                    / = new
022619	16:31:03	90	studyblock14	nonlistitems7	5000	1678793	53	0	653	z = old                                    / = new
022619	16:31:09	90	studyblock14	nonlistitems7	5000	1684676	53	0	822	z = old                                    / = new
022619	16:31:15	90	studyblock14	lures7	5000	1690692	44	1	955	z = old                                    / = new
022619	16:31:21	90	studyblock14	listitems7	5000	1696725	53	1	968	z = old                                    / = new
022619	16:32:52	90	readingpassage	readingpassage	0	1788317		1	75325	This passage is adapted from Emily Anthes, Frankenstein's Cat. ©2013 by Emily Anthes.    Retrieved from College Board 2015 SAT Practice Test #4    When scientists first learned how to edit the genomes of animals, they began to imagine all the ways they could use this new power. Creating brightly colored novelty pets was not a high priority. Instead, most researchers envisioned far more consequential applications, oping to create genetically engineered animals that saved human lives. One enterprise is now delivering on this dream. Welcome to the world of “pharming,” in which simple genetic tweaks turn animals into living pharmaceutical factories. Many of the proteins that our cells crank out naturally make for good medicine. Our bodies’ own enzymes, hormones, clotting factors, and antibodies are commonly used to treat cancer, diabetes, autoimmune diseases, and more. The trouble is that it’s difficult and expensive to make these compounds on an industrial scale, and as a result, patients can face shortages of the medicines they need. Dairy animals, on the other hand, are expert protein producers, their udders swollen with milk. So the creation of the first transgenic animals—first mice, then other species—in the 1980s gave scientists an idea: What if they put the gene for a human antibody or enzyme into a cow, goat, or sheep? If they put the gene in just the right place, under the control of the right molecular switch, maybe they could engineer animals that produced healing human proteins in their milk. Then doctors could collect medicine by the bucketful. Throughout the 1980s and ’90s, studies provided proof of principle, as scientists created transgenic mice, sheep, goats, pigs, cattle, and rabbits that did in fact make therapeutic compounds in their milk. At first, this work was merely gee-whiz, scientific geekery, lab-bound thought experiments come true. That all changed with ATryn, a drug produced by the Massachusetts firm GTC Biotherapeutics.
022619	16:33:22	90	readingpassage	readingpassage2	0	1818197		1	29844	ATryn is antithrombin, an anticoagulant that can be used to prevent life-threatening blood clots. The compound, made by our liver cells, plays a key role in keeping our bodies clot-free. It acts as a molecular bouncer, sidling up to clot-forming compounds and escorting them out of the bloodstream. But as many as 1 in 2,000 Americans are born with a genetic mutation that prevents them from making antithrombin. These patients are prone to clots, especially in their legs and lungs, and they are at elevated risk of suffering from fatal complications during surgery and childbirth. Supplemental antithrombin can reduce this risk, and GTC decided to try to manufacture the compound using genetically engineered goats. To create its special herd of goats, GTC used microinjection, the same technique that produced GloFish and AquAdvantage salmon. The company’s scientists took the gene for human antithrombin and injected it directly into fertilized goat eggs. Then they implanted the eggs in the wombs of female goats. When the kids were born, some of them proved to be transgenic, the human gene nestled safely in their cells. The researchers paired the antithrombin gene with a promoter (which is a sequence of DNA that controls gene activity) that is normally active in the goat’s mammary glands during milk production. When the transgenic females lactated, the promoter turned the transgene on and the goats’ udders filled with milk containing antithrombin. All that was left to do was to collect the milk, and extract and purify the protein. Et voilà—human medicine! And, for GTC, liquid gold. ATryn hit the market in 2006, becoming the world’s first transgenic animal drug. Over the course of a year, the “milking parlors” on GTC’s 300-acre farm in Massachusetts can collect more than a kilogram of medicine from a single animal.
022619	16:34:30	90	test	test	0	1886057	0	0	5000	0
022619	16:34:31	90	test	test2	0	1886574	0	0	500	6
022619	16:34:49	90	SurveyQuestions	NeedforCognition	0	1904972	4	0	13073	I would prefer complex to simple problems.
022619	16:34:56	90	SurveyQuestions	NeedforCognition	0	1912022	8	0	6968	I like to have the responsibility of handling a situation that requires a lot of thinking.
022619	16:35:02	90	SurveyQuestions	NeedforCognition	0	1917638	3	0	5561	Thinking is not my idea of fun.
022619	16:35:10	90	SurveyQuestions	NeedforCognition	0	1925837	3	0	8144	I would rather do something that requires little thought than something that is sure to challenge my thinking abilities.
022619	16:35:17	90	SurveyQuestions	NeedforCognition	0	1933020	4	0	7127	I try to anticipate and avoid situations where there is likely a chance I will have to think in depth about something.
022619	16:35:23	90	SurveyQuestions	NeedforCognition	0	1938653	6	0	5570	I find satisfaction in deliberating hard and for long hours.
022619	16:35:27	90	SurveyQuestions	NeedforCognition	0	1943519	3	0	4782	I only think as hard as I have to.
022619	16:35:34	90	SurveyQuestions	NeedforCognition	0	1950018	3	0	6443	I prefer to think about small, daily projects to long-term ones.
022619	16:35:46	90	SurveyQuestions	NeedforCognition	0	1961967	3	0	11871	I like tasks that require little thought once I’ve learned them.
022619	16:35:51	90	SurveyQuestions	NeedforCognition	0	1967083	7	0	5056	The idea of relying on thought to make my way to the top appeals to me.
022619	16:35:56	90	SurveyQuestions	NeedforCognition	0	1971633	7	0	4495	I really enjoy a task that involves coming up with new solutions to problems.
022619	16:35:59	90	SurveyQuestions	NeedforCognition	0	1975566	2	0	3858	Learning new ways to think doesn’t excite me very much.
022619	16:36:03	90	SurveyQuestions	NeedforCognition	0	1979049	7	0	3400	I prefer my life to be filled with puzzles that I must solve.
022619	16:36:07	90	SurveyQuestions	NeedforCognition	0	1982715	7	0	3612	The notion of thinking abstractly is appealing to me.
022619	16:36:12	90	SurveyQuestions	NeedforCognition	0	1988515	4	0	5736	I would prefer a task that is intellectual, difficult, and important to one that is somewhat important but does not require much thought.
022619	16:36:18	90	SurveyQuestions	NeedforCognition	0	1994298	5	0	5729	I feel relief rather than satisfaction after completing a task that required a lot of mental effort.
022619	16:36:26	90	SurveyQuestions	NeedforCognition	0	2002147	2	0	7769	It’s enough for me that something gets the job done; I don’t care how or why it works.
022619	16:36:33	90	SurveyQuestions	NeedforCognition	0	2009396	7	0	7182	I usually end up deliberating about issues even when they do not affect me personally.
022619	16:36:53	90	SurveyQuestions	sex	0	2028878	Female	1	19401	0
022619	16:36:53	90	SurveyQuestions	age	0	2028878	22	1	19401	0
022619	16:36:53	90	SurveyQuestions	handedness	0	2028878	Right	1	19401	0
022619	16:36:53	90	SurveyQuestions	education	0	2028878	Junior	1	19401	0
022619	16:36:53	90	SurveyQuestions	ethnicity	0	2028878	Asian	1	19401	0
