date	script.currenttime	subject	blockcode	trialcode	posttrialpause	script.elapsedtime	response	correct	latency	stimulusitem1
021119	12:20:43	63	studyblock4	nextlistmessage	1000	14730	0	0	1500	* * * * LIST 1 * * * *
021119	12:21:14	63	studyblock4	studytrial4	0	45728	0	0	29500	mountainlist.wav
021119	12:21:17	63	studyblock8	nextlistmessage	1000	48361	0	0	1500	* * * * LIST 2 * * * *
021119	12:21:48	63	studyblock8	studytrial8	0	79358	0	0	29500	smelllist.wav
021119	12:21:51	63	studyblock3	nextlistmessage	1000	81991	0	0	1500	* * * * LIST 3 * * * *
021119	12:22:22	63	studyblock3	studytrial3	0	112988	0	0	29500	chairlist.wav
021119	12:22:24	63	studyblock2	nextlistmessage	1000	115621	0	0	1500	* * * * LIST 4 * * * *
021119	12:22:55	63	studyblock2	studytrial2	0	146618	0	0	29500	doctorlist.wav
021119	12:22:58	63	studyblock6	nextlistmessage	1000	149251	0	0	1500	* * * * LIST 5 * * * *
021119	12:23:29	63	studyblock6	studytrial6	0	180248	0	0	29500	slowlist.wav
021119	12:23:31	63	studyblock1	nextlistmessage	1000	182881	0	0	1500	* * * * LIST 6 * * * *
021119	12:24:02	63	studyblock1	studytrial1	0	213878	0	0	29500	angerlist.wav
021119	12:24:05	63	studyblock5	nextlistmessage	1000	216512	0	0	1500	* * * * LIST 7 * * * *
021119	12:24:36	63	studyblock5	studytrial5	0	247509	0	0	29500	musiclist.wav
021119	12:24:39	63	studyblock7	nextlistmessage	1000	250142	0	0	1500	* * * * LIST 8 * * * *
021119	12:25:10	63	studyblock7	studytrial7	0	281139	0	0	29500	softlist.wav
021119	12:25:25	63	RecognitionPhase1	relatedlure	5000	296704	44	0	3638	z = old                                    / = new
021119	12:25:39	63	RecognitionPhase1	lureslikert	0	310620	100	0	8791	slow
021119	12:25:42	63	RecognitionPhase1	studieditem	5000	313553	44	1	2846	z = old                                    / = new
021119	12:25:50	63	RecognitionPhase1	list1likert	0	321019	100	0	2350	hatred
021119	12:25:54	63	RecognitionPhase1	nonstudieditem	5000	325035	53	1	3921	z = old                                    / = new
021119	12:26:01	63	RecognitionPhase1	list2likert	0	332584	100	0	2436	mouse
021119	12:26:06	63	RecognitionPhase1	nonstudieditem	5000	337234	53	1	4560	z = old                                    / = new
021119	12:26:13	63	RecognitionPhase1	list2likert	0	344500	50	0	2132	hurt
021119	12:26:16	63	RecognitionPhase1	studieditem	5000	347766	53	0	3174	z = old                                    / = new
021119	12:26:23	63	RecognitionPhase1	list1likert	0	354765	35	0	1872	top
021119	12:26:26	63	RecognitionPhase1	studieditem	5000	357082	44	1	2231	z = old                                    / = new
021119	12:26:34	63	RecognitionPhase1	list1likert	0	364998	85	0	2780	mad
021119	12:26:42	63	RecognitionPhase1	nonstudieditem	5000	373030	53	1	7936	z = old                                    / = new
021119	12:26:51	63	RecognitionPhase1	list2likert	0	382246	60	0	4096	dream
021119	12:26:55	63	RecognitionPhase1	studieditem	5000	386129	53	0	3792	z = old                                    / = new
021119	12:27:01	63	RecognitionPhase1	list1likert	0	392379	55	0	1116	loud
021119	12:27:05	63	RecognitionPhase1	relatedlure	5000	396678	44	0	4203	z = old                                    / = new
021119	12:27:15	63	RecognitionPhase1	lureslikert	0	406444	70	0	4656	chair
021119	12:27:18	63	RecognitionPhase1	studieditem	5000	409160	53	0	2621	z = old                                    / = new
021119	12:27:25	63	RecognitionPhase1	list1likert	0	416460	45	0	2181	health
021119	12:27:30	63	RecognitionPhase1	nonstudieditem	5000	421059	53	1	4501	z = old                                    / = new
021119	12:27:36	63	RecognitionPhase1	list2likert	0	427742	25	0	1563	water
021119	12:27:39	63	RecognitionPhase1	relatedlure	5000	430042	44	0	2199	z = old                                    / = new
021119	12:27:45	63	RecognitionPhase1	lureslikert	0	436341	60	0	1181	mountain
021119	12:27:49	63	RecognitionPhase1	studieditem	5000	440741	44	1	4311	z = old                                    / = new
021119	12:27:56	63	RecognitionPhase1	list1likert	0	447273	100	0	1418	couch
021119	12:27:58	63	RecognitionPhase1	studieditem	5000	449423	44	1	2050	z = old                                    / = new
021119	12:28:04	63	RecognitionPhase1	list1likert	0	455673	100	0	1110	note
021119	12:28:07	63	RecognitionPhase1	nonstudieditem	5000	458039	53	1	2277	z = old                                    / = new
021119	12:28:15	63	RecognitionPhase1	list2likert	0	466355	75	0	3207	web
021119	12:28:17	63	RecognitionPhase1	studieditem	5000	468888	53	0	2433	z = old                                    / = new
021119	12:28:24	63	RecognitionPhase1	list1likert	0	475237	65	0	1238	office
021119	12:28:26	63	RecognitionPhase1	nonstudieditem	5000	477704	53	1	2371	z = old                                    / = new
021119	12:28:33	63	RecognitionPhase1	list2likert	0	484753	65	0	1934	thread
021119	12:28:37	63	RecognitionPhase1	nonstudieditem	5000	488070	44	0	3222	z = old                                    / = new
021119	12:28:44	63	RecognitionPhase1	list2likert	0	494953	60	0	1776	bed
021119	12:28:47	63	RecognitionPhase1	studieditem	5000	498285	44	1	3236	z = old                                    / = new
021119	12:28:54	63	RecognitionPhase1	list1likert	0	505585	35	0	2176	snail
021119	12:28:57	63	RecognitionPhase1	studieditem	5000	507984	44	1	2311	z = old                                    / = new
021119	12:29:03	63	RecognitionPhase1	list1likert	0	514217	100	0	1117	nurse
021119	12:29:05	63	RecognitionPhase1	nonstudieditem	5000	516334	53	1	2026	z = old                                    / = new
021119	12:29:12	63	RecognitionPhase1	list2likert	0	523616	80	0	2160	creepy
021119	12:29:14	63	RecognitionPhase1	nonstudieditem	5000	525583	53	1	1869	z = old                                    / = new
021119	12:29:24	63	RecognitionPhase1	list2likert	0	535215	60	0	4511	money
021119	12:29:27	63	RecognitionPhase1	studieditem	5000	538232	44	1	2917	z = old                                    / = new
021119	12:29:33	63	RecognitionPhase1	list1likert	0	544431	100	0	1061	hard
021119	12:29:36	63	RecognitionPhase1	nonstudieditem	5000	547714	44	0	3193	z = old                                    / = new
021119	12:29:44	63	RecognitionPhase1	list2likert	0	555847	80	0	3003	villain
021119	12:29:46	63	RecognitionPhase1	studieditem	5000	557863	53	0	1921	z = old                                    / = new
021119	12:29:55	63	RecognitionPhase1	list1likert	0	566379	80	0	3399	bike
021119	12:29:58	63	RecognitionPhase1	relatedlure	5000	569729	44	0	3254	z = old                                    / = new
021119	12:30:05	63	RecognitionPhase1	lureslikert	0	576878	75	0	2012	soft
021119	12:30:07	63	RecognitionPhase1	nonstudieditem	5000	578778	53	1	1806	z = old                                    / = new
021119	12:30:14	63	RecognitionPhase1	list2likert	0	585644	65	0	1748	boy
021119	12:30:17	63	RecognitionPhase1	studieditem	5000	588444	44	1	2700	z = old                                    / = new
021119	12:30:24	63	RecognitionPhase1	list1likert	0	595526	80	0	1946	stench
021119	12:30:27	63	RecognitionPhase1	studieditem	5000	598343	53	0	2720	z = old                                    / = new
021119	12:30:34	63	RecognitionPhase1	list1likert	0	604925	45	0	1446	radio
021119	12:30:36	63	RecognitionPhase1	nonstudieditem	5000	607175	53	1	2163	z = old                                    / = new
021119	12:30:44	63	RecognitionPhase1	list2likert	0	615324	60	0	3005	dress
021119	12:30:46	63	RecognitionPhase1	studieditem	5000	617558	44	1	2135	z = old                                    / = new
021119	12:30:53	63	RecognitionPhase1	list1likert	0	624724	90	0	2047	speed
021119	12:30:56	63	RecognitionPhase1	nonstudieditem	5000	626973	53	1	2151	z = old                                    / = new
021119	12:31:08	63	RecognitionPhase1	list2likert	0	639739	70	0	7656	person
021119	12:31:14	63	RecognitionPhase1	relatedlure	5000	645438	53	1	5605	z = old                                    / = new
021119	12:31:22	63	RecognitionPhase1	lureslikert	0	653638	20	0	3087	doctor
021119	12:31:26	63	RecognitionPhase1	nonstudieditem	5000	656987	44	0	3252	z = old                                    / = new
021119	12:31:32	63	RecognitionPhase1	list2likert	0	663537	15	0	1441	cute
021119	12:31:37	63	RecognitionPhase1	nonstudieditem	5000	668253	53	1	4629	z = old                                    / = new
021119	12:31:43	63	RecognitionPhase1	list2likert	0	674402	70	0	1023	snore
021119	12:31:46	63	RecognitionPhase1	studieditem	5000	677202	53	0	2709	z = old                                    / = new
021119	12:31:54	63	RecognitionPhase1	list1likert	0	685435	65	0	3123	furry
021119	12:31:57	63	RecognitionPhase1	studieditem	5000	687934	44	1	2400	z = old                                    / = new
021119	12:32:03	63	RecognitionPhase1	list1likert	0	694150	100	0	1103	fast
021119	12:32:05	63	RecognitionPhase1	nonstudieditem	5000	696234	53	1	1989	z = old                                    / = new
021119	12:32:13	63	RecognitionPhase1	list2likert	0	704000	60	0	2659	woman
021119	12:32:16	63	RecognitionPhase1	nonstudieditem	5000	706916	53	1	2828	z = old                                    / = new
021119	12:32:24	63	RecognitionPhase1	list2likert	0	715848	55	0	3793	fly
021119	12:32:28	63	RecognitionPhase1	relatedlure	5000	719065	44	0	3131	z = old                                    / = new
021119	12:32:36	63	RecognitionPhase1	lureslikert	0	727314	55	0	3115	anger
021119	12:32:39	63	RecognitionPhase1	nonstudieditem	5000	730314	53	1	2902	z = old                                    / = new
021119	12:32:46	63	RecognitionPhase1	list2likert	0	737813	25	0	2387	boot
021119	12:32:48	63	RecognitionPhase1	studieditem	5000	739546	53	0	1642	z = old                                    / = new
021119	12:32:57	63	RecognitionPhase1	list1likert	0	748479	75	0	3819	swivel
021119	12:32:59	63	RecognitionPhase1	relatedlure	5000	750079	44	0	1504	z = old                                    / = new
021119	12:33:07	63	RecognitionPhase1	lureslikert	0	758511	50	0	3318	music
021119	12:33:09	63	RecognitionPhase1	studieditem	5000	760411	44	1	1807	z = old                                    / = new
021119	12:33:15	63	RecognitionPhase1	list1likert	0	766844	85	0	1313	symphony
021119	12:33:17	63	RecognitionPhase1	studieditem	5000	768194	44	1	1264	z = old                                    / = new
021119	12:33:24	63	RecognitionPhase1	list1likert	0	774926	80	0	1602	temper
021119	12:33:25	63	RecognitionPhase1	nonstudieditem	5000	776793	53	1	1773	z = old                                    / = new
021119	12:33:32	63	RecognitionPhase1	list2likert	0	783792	30	0	1875	sharp
021119	12:33:37	63	RecognitionPhase1	nonstudieditem	5000	788425	53	1	4541	z = old                                    / = new
021119	12:33:44	63	RecognitionPhase1	list2likert	0	795891	20	0	2356	creek
021119	12:33:46	63	RecognitionPhase1	nonstudieditem	5000	797891	53	1	1913	z = old                                    / = new
021119	12:33:54	63	RecognitionPhase1	list2likert	0	805273	35	0	2266	steal
021119	12:33:55	63	RecognitionPhase1	relatedlure	5000	806640	44	0	1274	z = old                                    / = new
021119	12:34:02	63	RecognitionPhase1	lureslikert	0	813289	85	0	1540	smell
021119	12:34:07	63	RecognitionPhase1	studieditem	5000	818039	44	1	4649	z = old                                    / = new
021119	12:34:14	63	RecognitionPhase1	list1likert	0	825038	55	0	1877	hear
021119	12:34:16	63	RecognitionPhase1	nonstudieditem	5000	827071	44	0	1941	z = old                                    / = new
021119	12:34:23	63	RecognitionPhase1	list2likert	0	834187	40	0	1988	shoe
021119	12:34:24	63	RecognitionPhase1	studieditem	5000	835787	44	1	1501	z = old                                    / = new
021119	12:34:31	63	RecognitionPhase1	list1likert	0	842303	100	0	1409	hill
021119	12:34:33	63	RecognitionPhase1	studieditem	5000	844603	44	1	2211	z = old                                    / = new
021119	12:34:40	63	RecognitionPhase1	list1likert	0	851436	100	0	1713	table
021119	12:34:42	63	RecognitionPhase1	nonstudieditem	5000	853736	53	1	2200	z = old                                    / = new
021119	12:34:49	63	RecognitionPhase1	list2likert	0	860818	55	0	1973	boat
021119	12:34:51	63	RecognitionPhase1	studieditem	5000	862785	44	1	1876	z = old                                    / = new
021119	12:34:58	63	RecognitionPhase1	list1likert	0	869267	60	0	1363	nose
021119	12:35:00	63	RecognitionPhase1	nonstudieditem	5000	871434	53	1	2081	z = old                                    / = new
021119	12:35:08	63	RecognitionPhase1	list2likert	0	879316	65	0	2745	sandals
021119	12:35:47	63	studyblock11	nextlistmessage2	1000	918529	0	0	1500	* * * * LIST 1 * * * *
021119	12:35:53	63	studyblock11	highluremessage	1000	924529	0	0	4500	critical lure:
021119	12:36:24	63	studyblock11	studytrial11	0	955526	0	0	29500	highlist.wav
021119	12:36:28	63	studyblock11	nonlistitems4	5000	958942	53	0	3318	z = old                                    / = new
021119	12:36:35	63	studyblock11	nonlistitems4	5000	966325	53	0	2330	z = old                                    / = new
021119	12:36:43	63	studyblock11	listitems4	5000	974208	44	0	2818	z = old                                    / = new
021119	12:36:49	63	studyblock11	lures4	5000	979990	44	1	718	z = old                                    / = new
021119	12:36:55	63	studyblock11	listitems4	5000	986140	44	0	1097	z = old                                    / = new
021119	12:37:01	63	studyblock11	listitems4	5000	992273	44	0	1058	z = old                                    / = new
021119	12:37:07	63	studyblock11	nonlistitems4	5000	998655	53	0	1316	z = old                                    / = new
021119	12:37:15	63	studyblock14	nextlistmessage2	1000	1006255	0	0	1500	* * * * LIST 2 * * * *
021119	12:37:21	63	studyblock14	sweetluremessage	1000	1012254	0	0	4500	critical lure:
021119	12:37:52	63	studyblock14	studytrial14	0	1043251	0	0	29500	sweetlist.wav
021119	12:37:53	63	studyblock14	nonlistitems7	5000	1044868	53	0	1518	z = old                                    / = new
021119	12:38:02	63	studyblock14	lures7	5000	1053167	44	1	3242	z = old                                    / = new
021119	12:38:08	63	studyblock14	nonlistitems7	5000	1059233	53	0	1010	z = old                                    / = new
021119	12:38:14	63	studyblock14	nonlistitems7	5000	1065033	53	0	747	z = old                                    / = new
021119	12:38:20	63	studyblock14	listitems7	5000	1071115	44	0	1023	z = old                                    / = new
021119	12:38:26	63	studyblock14	listitems7	5000	1076965	44	0	798	z = old                                    / = new
021119	12:38:31	63	studyblock14	listitems7	5000	1082731	44	0	690	z = old                                    / = new
021119	12:38:39	63	studyblock9	nextlistmessage2	1000	1090330	0	0	1500	* * * * LIST 3 * * * *
021119	12:38:45	63	studyblock9	coldluremessage	1000	1096330	0	0	4500	critical lure:
021119	12:39:16	63	studyblock9	studytrial9	0	1127327	0	0	29500	coldlist.wav
021119	12:39:17	63	studyblock9	nonlistitems2	5000	1128293	53	0	878	z = old                                    / = new
021119	12:39:23	63	studyblock9	listitems2	5000	1134059	44	0	708	z = old                                    / = new
021119	12:39:29	63	studyblock9	lures2	5000	1139976	44	1	863	z = old                                    / = new
021119	12:39:35	63	studyblock9	listitems2	5000	1146475	44	0	1441	z = old                                    / = new
021119	12:39:43	63	studyblock9	nonlistitems2	5000	1154591	53	0	3064	z = old                                    / = new
021119	12:39:50	63	studyblock9	nonlistitems2	5000	1161107	53	0	1436	z = old                                    / = new
021119	12:39:56	63	studyblock9	listitems2	5000	1167073	44	0	913	z = old                                    / = new
021119	12:40:03	63	studyblock12	nextlistmessage2	1000	1174672	0	0	1500	* * * * LIST 4 * * * *
021119	12:40:09	63	studyblock12	trashluremessage	1000	1180672	0	0	4500	critical lure:
021119	12:40:40	63	studyblock12	studytrial12	0	1211669	0	0	29500	trashlist.wav
021119	12:40:45	63	studyblock12	nonlistitems5	5000	1216435	53	0	4676	z = old                                    / = new
021119	12:40:51	63	studyblock12	nonlistitems5	5000	1222518	53	0	1016	z = old                                    / = new
021119	12:40:57	63	studyblock12	listitems5	5000	1228317	44	0	744	z = old                                    / = new
021119	12:41:03	63	studyblock12	listitems5	5000	1234817	44	0	1443	z = old                                    / = new
021119	12:41:10	63	studyblock12	listitems5	5000	1241816	53	1	1939	z = old                                    / = new
021119	12:41:16	63	studyblock12	nonlistitems5	5000	1247782	53	0	899	z = old                                    / = new
021119	12:41:25	63	studyblock12	lures5	5000	1256881	44	1	4041	z = old                                    / = new
021119	12:41:33	63	studyblock16	nextlistmessage2	1000	1264481	0	0	1500	* * * * LIST 5 * * * *
021119	12:41:39	63	studyblock16	smokeluremessage	1000	1270480	0	0	4500	critical lure:
021119	12:42:10	63	studyblock16	studytrial16	0	1301477	0	0	29500	smokelist.wav
021119	12:42:15	63	studyblock16	listitems9	5000	1306227	53	1	4664	z = old                                    / = new
021119	12:42:21	63	studyblock16	listitems9	5000	1312243	44	0	934	z = old                                    / = new
021119	12:42:27	63	studyblock16	nonlistitems9	5000	1318226	53	0	919	z = old                                    / = new
021119	12:42:33	63	studyblock16	listitems9	5000	1324275	44	0	993	z = old                                    / = new
021119	12:42:39	63	studyblock16	nonlistitems9	5000	1330124	53	0	787	z = old                                    / = new
021119	12:42:45	63	studyblock16	nonlistitems9	5000	1336091	53	0	903	z = old                                    / = new
021119	12:42:50	63	studyblock16	lures9	5000	1341890	44	1	737	z = old                                    / = new
021119	12:42:58	63	studyblock15	nextlistmessage2	1000	1349489	0	0	1500	* * * * LIST 6 * * * *
021119	12:43:04	63	studyblock15	windowluremessage	1000	1355489	0	0	4500	critical lure:
021119	12:43:35	63	studyblock15	studytrial15	0	1386486	0	0	29500	windowlist.wav
021119	12:43:37	63	studyblock15	lures8	5000	1388719	44	1	2147	z = old                                    / = new
021119	12:43:43	63	studyblock15	nonlistitems8	5000	1394835	53	0	1033	z = old                                    / = new
021119	12:43:50	63	studyblock15	nonlistitems8	5000	1401034	53	0	1146	z = old                                    / = new
021119	12:43:57	63	studyblock15	listitems8	5000	1408717	44	0	2629	z = old                                    / = new
021119	12:44:03	63	studyblock15	listitems8	5000	1414767	53	1	986	z = old                                    / = new
021119	12:44:10	63	studyblock15	nonlistitems8	5000	1421033	53	0	1212	z = old                                    / = new
021119	12:44:16	63	studyblock15	listitems8	5000	1427382	44	0	1291	z = old                                    / = new
021119	12:44:24	63	studyblock10	nextlistmessage2	1000	1434981	0	0	1500	* * * * LIST 7 * * * *
021119	12:44:30	63	studyblock10	cupluremessage	1000	1440981	0	0	4500	critical lure:
021119	12:45:01	63	studyblock10	studytrial10	0	1471978	0	0	29500	cuplist.wav
021119	12:45:05	63	studyblock10	lures3	5000	1475977	53	0	3906	z = old                                    / = new
021119	12:45:11	63	studyblock10	nonlistitems3	5000	1482127	53	0	1085	z = old                                    / = new
021119	12:45:19	63	studyblock10	listitems3	5000	1490193	53	1	3007	z = old                                    / = new
021119	12:45:25	63	studyblock10	nonlistitems3	5000	1496792	53	0	1547	z = old                                    / = new
021119	12:45:31	63	studyblock10	listitems3	5000	1502758	44	0	905	z = old                                    / = new
021119	12:45:38	63	studyblock10	nonlistitems3	5000	1508941	53	0	1122	z = old                                    / = new
021119	12:45:44	63	studyblock10	listitems3	5000	1514957	44	0	953	z = old                                    / = new
021119	12:45:51	63	studyblock13	nextlistmessage2	1000	1522557	0	0	1500	* * * * LIST 8 * * * *
021119	12:45:57	63	studyblock13	roughluremessage	1000	1528556	0	0	4500	critical lure:
021119	12:46:28	63	studyblock13	studytrial13	0	1559553	0	0	29500	roughlist.wav
021119	12:46:31	63	studyblock13	listitems6	5000	1562619	44	0	2965	z = old                                    / = new
021119	12:46:37	63	studyblock13	nonlistitems6	5000	1568552	53	0	866	z = old                                    / = new
021119	12:46:43	63	studyblock13	listitems6	5000	1574918	44	0	1309	z = old                                    / = new
021119	12:46:50	63	studyblock13	nonlistitems6	5000	1581684	53	0	1704	z = old                                    / = new
021119	12:46:56	63	studyblock13	lures6	5000	1587417	44	1	673	z = old                                    / = new
021119	12:47:02	63	studyblock13	nonlistitems6	5000	1593217	53	0	734	z = old                                    / = new
021119	12:47:09	63	studyblock13	listitems6	5000	1600033	44	0	1763	z = old                                    / = new
021119	12:49:12	63	readingpassage	readingpassage	0	1722938		1	102734	This passage is adapted from Emily Anthes, Frankenstein's Cat. ©2013 by Emily Anthes.    Retrieved from College Board 2015 SAT Practice Test #4    When scientists first learned how to edit the genomes of animals, they began to imagine all the ways they could use this new power. Creating brightly colored novelty pets was not a high priority. Instead, most researchers envisioned far more consequential applications, oping to create genetically engineered animals that saved human lives. One enterprise is now delivering on this dream. Welcome to the world of “pharming,” in which simple genetic tweaks turn animals into living pharmaceutical factories. Many of the proteins that our cells crank out naturally make for good medicine. Our bodies’ own enzymes, hormones, clotting factors, and antibodies are commonly used to treat cancer, diabetes, autoimmune diseases, and more. The trouble is that it’s difficult and expensive to make these compounds on an industrial scale, and as a result, patients can face shortages of the medicines they need. Dairy animals, on the other hand, are expert protein producers, their udders swollen with milk. So the creation of the first transgenic animals—first mice, then other species—in the 1980s gave scientists an idea: What if they put the gene for a human antibody or enzyme into a cow, goat, or sheep? If they put the gene in just the right place, under the control of the right molecular switch, maybe they could engineer animals that produced healing human proteins in their milk. Then doctors could collect medicine by the bucketful. Throughout the 1980s and ’90s, studies provided proof of principle, as scientists created transgenic mice, sheep, goats, pigs, cattle, and rabbits that did in fact make therapeutic compounds in their milk. At first, this work was merely gee-whiz, scientific geekery, lab-bound thought experiments come true. That all changed with ATryn, a drug produced by the Massachusetts firm GTC Biotherapeutics.
021119	12:50:02	63	readingpassage	readingpassage2	0	1772983		1	50008	ATryn is antithrombin, an anticoagulant that can be used to prevent life-threatening blood clots. The compound, made by our liver cells, plays a key role in keeping our bodies clot-free. It acts as a molecular bouncer, sidling up to clot-forming compounds and escorting them out of the bloodstream. But as many as 1 in 2,000 Americans are born with a genetic mutation that prevents them from making antithrombin. These patients are prone to clots, especially in their legs and lungs, and they are at elevated risk of suffering from fatal complications during surgery and childbirth. Supplemental antithrombin can reduce this risk, and GTC decided to try to manufacture the compound using genetically engineered goats. To create its special herd of goats, GTC used microinjection, the same technique that produced GloFish and AquAdvantage salmon. The company’s scientists took the gene for human antithrombin and injected it directly into fertilized goat eggs. Then they implanted the eggs in the wombs of female goats. When the kids were born, some of them proved to be transgenic, the human gene nestled safely in their cells. The researchers paired the antithrombin gene with a promoter (which is a sequence of DNA that controls gene activity) that is normally active in the goat’s mammary glands during milk production. When the transgenic females lactated, the promoter turned the transgene on and the goats’ udders filled with milk containing antithrombin. All that was left to do was to collect the milk, and extract and purify the protein. Et voilà—human medicine! And, for GTC, liquid gold. ATryn hit the market in 2006, becoming the world’s first transgenic animal drug. Over the course of a year, the “milking parlors” on GTC’s 300-acre farm in Massachusetts can collect more than a kilogram of medicine from a single animal.
021119	12:51:38	63	test	test	0	1869191	0	0	5000	0
021119	12:51:38	63	test	test2	0	1869707	0	0	500	6
021119	12:51:57	63	SurveyQuestions	NeedforCognition	0	1888306	2	0	9392	I would prefer complex to simple problems.
021119	12:52:02	63	SurveyQuestions	NeedforCognition	0	1893772	7	0	5390	I like to have the responsibility of handling a situation that requires a lot of thinking.
021119	12:52:07	63	SurveyQuestions	NeedforCognition	0	1897971	3	0	4116	Thinking is not my idea of fun.
021119	12:52:13	63	SurveyQuestions	NeedforCognition	0	1904271	2	0	6228	I would rather do something that requires little thought than something that is sure to challenge my thinking abilities.
021119	12:52:18	63	SurveyQuestions	NeedforCognition	0	1909687	2	0	5337	I try to anticipate and avoid situations where there is likely a chance I will have to think in depth about something.
021119	12:52:30	63	SurveyQuestions	NeedforCognition	0	1920953	5	0	11209	I find satisfaction in deliberating hard and for long hours.
021119	12:52:34	63	SurveyQuestions	NeedforCognition	0	1925352	4	0	4319	I only think as hard as I have to.
021119	12:52:41	63	SurveyQuestions	NeedforCognition	0	1932402	2	0	6967	I prefer to think about small, daily projects to long-term ones.
021119	12:52:47	63	SurveyQuestions	NeedforCognition	0	1938135	4	0	5662	I like tasks that require little thought once I’ve learned them.
021119	12:52:59	63	SurveyQuestions	NeedforCognition	0	1950050	5	0	11833	The idea of relying on thought to make my way to the top appeals to me.
021119	12:53:03	63	SurveyQuestions	NeedforCognition	0	1954083	8	0	3950	I really enjoy a task that involves coming up with new solutions to problems.
021119	12:53:08	63	SurveyQuestions	NeedforCognition	0	1959099	2	0	4932	Learning new ways to think doesn’t excite me very much.
021119	12:53:12	63	SurveyQuestions	NeedforCognition	0	1963632	6	0	4452	I prefer my life to be filled with puzzles that I must solve.
021119	12:53:18	63	SurveyQuestions	NeedforCognition	0	1969815	8	0	6120	The notion of thinking abstractly is appealing to me.
021119	12:53:25	63	SurveyQuestions	NeedforCognition	0	1976131	7	0	6257	I would prefer a task that is intellectual, difficult, and important to one that is somewhat important but does not require much thought.
021119	12:53:34	63	SurveyQuestions	NeedforCognition	0	1985180	3	0	8989	I feel relief rather than satisfaction after completing a task that required a lot of mental effort.
021119	12:53:40	63	SurveyQuestions	NeedforCognition	0	1991213	2	0	5947	It’s enough for me that something gets the job done; I don’t care how or why it works.
021119	12:53:53	63	SurveyQuestions	NeedforCognition	0	2004028	6	0	12730	I usually end up deliberating about issues even when they do not affect me personally.
021119	12:54:08	63	SurveyQuestions	sex	0	2019094	Female	1	14968	0
021119	12:54:08	63	SurveyQuestions	age	0	2019094	21	1	14968	0
021119	12:54:08	63	SurveyQuestions	handedness	0	2019094	Right	1	14968	0
021119	12:54:08	63	SurveyQuestions	education	0	2019094	Junior	1	14968	0
021119	12:54:08	63	SurveyQuestions	ethnicity	0	2019094	Hispanic	1	14968	0
