date	script.currenttime	subject	blockcode	trialcode	posttrialpause	script.elapsedtime	response	correct	latency	stimulusitem1
021419	12:16:18	68	studyblock7	nextlistmessage	1000	21147	0	0	1500	* * * * LIST 1 * * * *
021419	12:16:49	68	studyblock7	studytrial7	0	52144	0	0	29500	softlist.wav
021419	12:16:52	68	studyblock1	nextlistmessage	1000	54777	0	0	1500	* * * * LIST 2 * * * *
021419	12:17:23	68	studyblock1	studytrial1	0	85774	0	0	29500	angerlist.wav
021419	12:17:26	68	studyblock2	nextlistmessage	1000	88407	0	0	1500	* * * * LIST 3 * * * *
021419	12:17:57	68	studyblock2	studytrial2	0	119404	0	0	29500	doctorlist.wav
021419	12:17:59	68	studyblock6	nextlistmessage	1000	122037	0	0	1500	* * * * LIST 4 * * * *
021419	12:18:30	68	studyblock6	studytrial6	0	153034	0	0	29500	slowlist.wav
021419	12:18:33	68	studyblock5	nextlistmessage	1000	155668	0	0	1500	* * * * LIST 5 * * * *
021419	12:19:04	68	studyblock5	studytrial5	0	186665	0	0	29500	musiclist.wav
021419	12:19:07	68	studyblock8	nextlistmessage	1000	189298	0	0	1500	* * * * LIST 6 * * * *
021419	12:19:38	68	studyblock8	studytrial8	0	220295	0	0	29500	smelllist.wav
021419	12:19:40	68	studyblock3	nextlistmessage	1000	222928	0	0	1500	* * * * LIST 7 * * * *
021419	12:20:11	68	studyblock3	studytrial3	0	253925	0	0	29500	chairlist.wav
021419	12:20:14	68	studyblock4	nextlistmessage	1000	256558	0	0	1500	* * * * LIST 8 * * * *
021419	12:20:45	68	studyblock4	studytrial4	0	287555	0	0	29500	mountainlist.wav
021419	12:21:13	68	RecognitionPhase1	nonstudieditem	5000	316103	53	1	2745	z = old                                    / = new
021419	12:21:27	68	RecognitionPhase1	list2likert	0	330068	80	0	8847	sandals
021419	12:21:31	68	RecognitionPhase1	relatedlure	5000	333718	44	0	3555	z = old                                    / = new
021419	12:21:40	68	RecognitionPhase1	lureslikert	0	342400	75	0	3567	chair
021419	12:21:44	68	RecognitionPhase1	studieditem	5000	346317	53	0	3831	z = old                                    / = new
021419	12:21:52	68	RecognitionPhase1	list1likert	0	354383	20	0	2929	hard
021419	12:21:54	68	RecognitionPhase1	relatedlure	5000	356916	44	0	2432	z = old                                    / = new
021419	12:22:04	68	RecognitionPhase1	lureslikert	0	366198	40	0	4169	doctor
021419	12:22:05	68	RecognitionPhase1	nonstudieditem	5000	367648	53	1	1365	z = old                                    / = new
021419	12:22:13	68	RecognitionPhase1	list2likert	0	375414	100	0	2631	cute
021419	12:22:16	68	RecognitionPhase1	nonstudieditem	5000	378314	44	0	2809	z = old                                    / = new
021419	12:22:23	68	RecognitionPhase1	list2likert	0	385563	70	0	2136	dress
021419	12:22:25	68	RecognitionPhase1	nonstudieditem	5000	387213	53	1	1552	z = old                                    / = new
021419	12:22:32	68	RecognitionPhase1	list2likert	0	394296	70	0	1967	boy
021419	12:22:34	68	RecognitionPhase1	nonstudieditem	5000	396229	53	1	1833	z = old                                    / = new
021419	12:22:41	68	RecognitionPhase1	list2likert	0	403245	75	0	1883	creepy
021419	12:22:42	68	RecognitionPhase1	nonstudieditem	5000	404461	53	1	1127	z = old                                    / = new
021419	12:22:49	68	RecognitionPhase1	list2likert	0	411777	65	0	2196	fly
021419	12:22:53	68	RecognitionPhase1	nonstudieditem	5000	415710	53	1	3832	z = old                                    / = new
021419	12:23:00	68	RecognitionPhase1	list2likert	0	422926	75	0	2110	web
021419	12:23:02	68	RecognitionPhase1	studieditem	5000	424276	44	1	1256	z = old                                    / = new
021419	12:23:08	68	RecognitionPhase1	list1likert	0	431026	80	0	1635	fast
021419	12:23:09	68	RecognitionPhase1	nonstudieditem	5000	432042	53	1	931	z = old                                    / = new
021419	12:23:17	68	RecognitionPhase1	list2likert	0	439258	80	0	2085	boat
021419	12:23:18	68	RecognitionPhase1	studieditem	5000	440441	44	1	1082	z = old                                    / = new
021419	12:23:26	68	RecognitionPhase1	list1likert	0	448208	0	0	2657	speed
021419	12:23:27	68	RecognitionPhase1	studieditem	5000	449474	44	1	1167	z = old                                    / = new
021419	12:23:37	68	RecognitionPhase1	list1likert	0	459240	100	0	4637	office
021419	12:23:39	68	RecognitionPhase1	studieditem	5000	461306	44	1	1980	z = old                                    / = new
021419	12:23:46	68	RecognitionPhase1	list1likert	0	468356	75	0	1927	furry
021419	12:23:47	68	RecognitionPhase1	studieditem	5000	469956	44	1	1513	z = old                                    / = new
021419	12:23:55	68	RecognitionPhase1	list1likert	0	477605	95	0	2533	hill
021419	12:23:57	68	RecognitionPhase1	nonstudieditem	5000	479355	53	1	1653	z = old                                    / = new
021419	12:24:03	68	RecognitionPhase1	list2likert	0	486104	70	0	1640	mouse
021419	12:24:06	68	RecognitionPhase1	nonstudieditem	5000	489120	53	1	2920	z = old                                    / = new
021419	12:24:15	68	RecognitionPhase1	list2likert	0	497703	95	0	3467	water
021419	12:24:18	68	RecognitionPhase1	nonstudieditem	5000	500253	53	1	2452	z = old                                    / = new
021419	12:24:27	68	RecognitionPhase1	list2likert	0	509252	10	0	3884	bed
021419	12:24:29	68	RecognitionPhase1	studieditem	5000	511402	44	1	2062	z = old                                    / = new
021419	12:24:37	68	RecognitionPhase1	list1likert	0	519234	90	0	2722	nurse
021419	12:24:38	68	RecognitionPhase1	studieditem	5000	521067	44	1	1737	z = old                                    / = new
021419	12:24:46	68	RecognitionPhase1	list1likert	0	529017	85	0	2830	hatred
021419	12:24:48	68	RecognitionPhase1	nonstudieditem	5000	530467	53	1	1361	z = old                                    / = new
021419	12:24:56	68	RecognitionPhase1	list2likert	0	539032	80	0	3443	shoe
021419	12:24:59	68	RecognitionPhase1	studieditem	5000	541349	44	1	2228	z = old                                    / = new
021419	12:25:06	68	RecognitionPhase1	list1likert	0	548882	100	0	2416	table
021419	12:25:08	68	RecognitionPhase1	nonstudieditem	5000	550531	53	1	1564	z = old                                    / = new
021419	12:25:16	68	RecognitionPhase1	list2likert	0	558714	95	0	3050	money
021419	12:25:17	68	RecognitionPhase1	studieditem	5000	560097	53	0	1287	z = old                                    / = new
021419	12:25:25	68	RecognitionPhase1	list1likert	0	567446	80	0	2238	top
021419	12:25:31	68	RecognitionPhase1	studieditem	5000	574163	53	0	6623	z = old                                    / = new
021419	12:25:39	68	RecognitionPhase1	list1likert	0	581962	95	0	2686	bike
021419	12:25:43	68	RecognitionPhase1	nonstudieditem	5000	585728	53	1	3672	z = old                                    / = new
021419	12:25:51	68	RecognitionPhase1	list2likert	0	593894	75	0	3047	creek
021419	12:25:53	68	RecognitionPhase1	nonstudieditem	5000	595294	44	0	1309	z = old                                    / = new
021419	12:26:01	68	RecognitionPhase1	list2likert	0	603543	80	0	3127	hurt
021419	12:26:06	68	RecognitionPhase1	studieditem	5000	608326	44	1	4698	z = old                                    / = new
021419	12:26:15	68	RecognitionPhase1	list1likert	0	617342	100	0	3883	swivel
021419	12:26:16	68	RecognitionPhase1	relatedlure	5000	618542	44	0	1115	z = old                                    / = new
021419	12:26:24	68	RecognitionPhase1	lureslikert	0	626591	100	0	2905	anger
021419	12:26:25	68	RecognitionPhase1	nonstudieditem	5000	628058	53	1	1373	z = old                                    / = new
021419	12:26:32	68	RecognitionPhase1	list2likert	0	635057	80	0	1873	person
021419	12:26:34	68	RecognitionPhase1	studieditem	5000	636257	53	0	1101	z = old                                    / = new
021419	12:26:40	68	RecognitionPhase1	list1likert	0	643140	70	0	1761	note
021419	12:26:42	68	RecognitionPhase1	nonstudieditem	5000	644406	53	1	1174	z = old                                    / = new
021419	12:26:48	68	RecognitionPhase1	list2likert	0	651006	70	0	1481	boot
021419	12:26:50	68	RecognitionPhase1	relatedlure	5000	653172	44	0	2066	z = old                                    / = new
021419	12:26:59	68	RecognitionPhase1	lureslikert	0	661671	35	0	3384	music
021419	12:27:00	68	RecognitionPhase1	studieditem	5000	663038	44	1	1266	z = old                                    / = new
021419	12:27:07	68	RecognitionPhase1	list1likert	0	670137	75	0	1977	health
021419	12:27:10	68	RecognitionPhase1	nonstudieditem	5000	672670	53	1	2445	z = old                                    / = new
021419	12:27:18	68	RecognitionPhase1	list2likert	0	680603	90	0	2810	woman
021419	12:27:19	68	RecognitionPhase1	studieditem	5000	681703	53	0	1007	z = old                                    / = new
021419	12:27:27	68	RecognitionPhase1	list1likert	0	689685	95	0	2870	hear
021419	12:27:28	68	RecognitionPhase1	nonstudieditem	5000	690868	53	1	1091	z = old                                    / = new
021419	12:27:36	68	RecognitionPhase1	list2likert	0	698785	90	0	2797	villain
021419	12:27:38	68	RecognitionPhase1	studieditem	5000	700668	44	1	1783	z = old                                    / = new
021419	12:27:46	68	RecognitionPhase1	list1likert	0	708250	100	0	2461	couch
021419	12:27:49	68	RecognitionPhase1	relatedlure	5000	711233	44	0	2890	z = old                                    / = new
021419	12:27:58	68	RecognitionPhase1	lureslikert	0	720199	95	0	3848	smell
021419	12:27:59	68	RecognitionPhase1	studieditem	5000	721999	44	1	1710	z = old                                    / = new
021419	12:28:07	68	RecognitionPhase1	list1likert	0	729765	100	0	2646	loud
021419	12:28:08	68	RecognitionPhase1	studieditem	5000	731115	44	1	1261	z = old                                    / = new
021419	12:28:18	68	RecognitionPhase1	list1likert	0	740664	100	0	4426	snail
021419	12:28:20	68	RecognitionPhase1	studieditem	5000	742730	44	1	1977	z = old                                    / = new
021419	12:28:27	68	RecognitionPhase1	list1likert	0	749713	65	0	1860	temper
021419	12:28:28	68	RecognitionPhase1	studieditem	5000	750963	44	1	1152	z = old                                    / = new
021419	12:28:36	68	RecognitionPhase1	list1likert	0	758496	90	0	2425	mad
021419	12:28:37	68	RecognitionPhase1	nonstudieditem	5000	759662	53	1	1076	z = old                                    / = new
021419	12:28:45	68	RecognitionPhase1	list2likert	0	767411	85	0	2633	thread
021419	12:28:46	68	RecognitionPhase1	relatedlure	5000	768711	44	0	1207	z = old                                    / = new
021419	12:28:53	68	RecognitionPhase1	lureslikert	0	775411	75	0	1575	soft
021419	12:28:54	68	RecognitionPhase1	nonstudieditem	5000	776777	53	1	1274	z = old                                    / = new
021419	12:29:02	68	RecognitionPhase1	list2likert	0	784643	60	0	2751	snore
021419	12:29:03	68	RecognitionPhase1	nonstudieditem	5000	785860	53	1	1116	z = old                                    / = new
021419	12:29:10	68	RecognitionPhase1	list2likert	0	792442	60	0	1471	sharp
021419	12:29:13	68	RecognitionPhase1	relatedlure	5000	795442	44	0	2901	z = old                                    / = new
021419	12:29:20	68	RecognitionPhase1	lureslikert	0	803125	85	0	2573	mountain
021419	12:29:22	68	RecognitionPhase1	studieditem	5000	804708	53	0	1497	z = old                                    / = new
021419	12:29:29	68	RecognitionPhase1	list1likert	0	812091	75	0	2251	symphony
021419	12:29:31	68	RecognitionPhase1	studieditem	5000	813674	44	1	1488	z = old                                    / = new
021419	12:29:39	68	RecognitionPhase1	list1likert	0	821207	95	0	2423	stench
021419	12:29:40	68	RecognitionPhase1	nonstudieditem	5000	822323	53	1	1029	z = old                                    / = new
021419	12:29:47	68	RecognitionPhase1	list2likert	0	829989	70	0	2546	steal
021419	12:29:49	68	RecognitionPhase1	studieditem	5000	831522	44	1	1444	z = old                                    / = new
021419	12:29:57	68	RecognitionPhase1	list1likert	0	839538	100	0	2897	nose
021419	12:29:58	68	RecognitionPhase1	relatedlure	5000	840521	53	1	886	z = old                                    / = new
021419	12:30:05	68	RecognitionPhase1	lureslikert	0	847771	75	0	2130	slow
021419	12:30:06	68	RecognitionPhase1	nonstudieditem	5000	848787	53	1	916	z = old                                    / = new
021419	12:30:14	68	RecognitionPhase1	list2likert	0	856587	100	0	2683	dream
021419	12:30:15	68	RecognitionPhase1	studieditem	5000	858086	44	1	1413	z = old                                    / = new
021419	12:30:23	68	RecognitionPhase1	list1likert	0	866186	100	0	2986	radio
021419	12:31:16	68	studyblock9	nextlistmessage2	1000	918598	0	0	1500	* * * * LIST 1 * * * *
021419	12:31:22	68	studyblock9	coldluremessage	1000	924597	0	0	4500	critical lure:
021419	12:31:53	68	studyblock9	studytrial9	0	955594	0	0	29500	coldlist.wav
021419	12:31:55	68	studyblock9	nonlistitems2	5000	957877	53	0	2193	z = old                                    / = new
021419	12:32:02	68	studyblock9	nonlistitems2	5000	964760	53	0	1824	z = old                                    / = new
021419	12:32:10	68	studyblock9	lures2	5000	972943	53	0	3120	z = old                                    / = new
021419	12:32:17	68	studyblock9	listitems2	5000	979292	53	1	1282	z = old                                    / = new
021419	12:32:23	68	studyblock9	listitems2	5000	985341	44	0	983	z = old                                    / = new
021419	12:32:29	68	studyblock9	listitems2	5000	991424	44	0	1017	z = old                                    / = new
021419	12:32:35	68	studyblock9	nonlistitems2	5000	997690	53	0	1212	z = old                                    / = new
021419	12:32:43	68	studyblock10	nextlistmessage2	1000	1005290	0	0	1500	* * * * LIST 2 * * * *
021419	12:32:49	68	studyblock10	cupluremessage	1000	1011289	0	0	4500	critical lure:
021419	12:33:20	68	studyblock10	studytrial10	0	1042286	0	0	29500	cuplist.wav
021419	12:33:22	68	studyblock10	listitems3	5000	1044886	44	0	2500	z = old                                    / = new
021419	12:33:29	68	studyblock10	listitems3	5000	1051252	44	0	1301	z = old                                    / = new
021419	12:33:34	68	studyblock10	listitems3	5000	1057118	44	0	800	z = old                                    / = new
021419	12:33:41	68	studyblock10	nonlistitems3	5000	1063984	53	0	1803	z = old                                    / = new
021419	12:33:47	68	studyblock10	nonlistitems3	5000	1069717	53	0	673	z = old                                    / = new
021419	12:33:53	68	studyblock10	nonlistitems3	5000	1076083	53	0	1301	z = old                                    / = new
021419	12:33:59	68	studyblock10	lures3	5000	1081733	44	1	587	z = old                                    / = new
021419	12:34:07	68	studyblock11	nextlistmessage2	1000	1089332	0	0	1500	* * * * LIST 3 * * * *
021419	12:34:13	68	studyblock11	highluremessage	1000	1095331	0	0	4500	critical lure:
021419	12:34:44	68	studyblock11	studytrial11	0	1126329	0	0	29500	highlist.wav
021419	12:34:45	68	studyblock11	listitems4	5000	1127795	44	0	1372	z = old                                    / = new
021419	12:34:51	68	studyblock11	listitems4	5000	1133928	44	0	1080	z = old                                    / = new
021419	12:34:59	68	studyblock11	lures4	5000	1141610	53	0	2623	z = old                                    / = new
021419	12:35:05	68	studyblock11	nonlistitems4	5000	1147643	53	0	974	z = old                                    / = new
021419	12:35:12	68	studyblock11	listitems4	5000	1154993	53	1	2283	z = old                                    / = new
021419	12:35:18	68	studyblock11	nonlistitems4	5000	1160725	53	0	678	z = old                                    / = new
021419	12:35:24	68	studyblock11	nonlistitems4	5000	1166692	53	0	908	z = old                                    / = new
021419	12:35:32	68	studyblock14	nextlistmessage2	1000	1174291	0	0	1500	* * * * LIST 4 * * * *
021419	12:35:38	68	studyblock14	sweetluremessage	1000	1180290	0	0	4500	critical lure:
021419	12:36:09	68	studyblock14	studytrial14	0	1211287	0	0	29500	sweetlist.wav
021419	12:36:09	68	studyblock14	lures7	5000	1212137	53	0	751	z = old                                    / = new
021419	12:36:15	68	studyblock14	nonlistitems7	5000	1217903	53	0	709	z = old                                    / = new
021419	12:36:21	68	studyblock14	listitems7	5000	1223703	44	0	743	z = old                                    / = new
021419	12:36:27	68	studyblock14	listitems7	5000	1229419	44	0	650	z = old                                    / = new
021419	12:36:33	68	studyblock14	nonlistitems7	5000	1235269	53	0	791	z = old                                    / = new
021419	12:36:39	68	studyblock14	listitems7	5000	1241418	53	1	1089	z = old                                    / = new
021419	12:36:45	68	studyblock14	nonlistitems7	5000	1247551	53	0	1073	z = old                                    / = new
021419	12:36:52	68	studyblock16	nextlistmessage2	1000	1255150	0	0	1500	* * * * LIST 5 * * * *
021419	12:36:58	68	studyblock16	smokeluremessage	1000	1261150	0	0	4500	critical lure:
021419	12:37:29	68	studyblock16	studytrial16	0	1292147	0	0	29500	smokelist.wav
021419	12:37:31	68	studyblock16	listitems9	5000	1294080	44	0	1838	z = old                                    / = new
021419	12:37:37	68	studyblock16	nonlistitems9	5000	1299929	53	0	795	z = old                                    / = new
021419	12:37:44	68	studyblock16	listitems9	5000	1306279	44	0	1284	z = old                                    / = new
021419	12:37:49	68	studyblock16	nonlistitems9	5000	1312195	53	0	855	z = old                                    / = new
021419	12:37:57	68	studyblock16	lures9	5000	1319444	53	0	2190	z = old                                    / = new
021419	12:38:03	68	studyblock16	listitems9	5000	1325527	44	0	1027	z = old                                    / = new
021419	12:38:09	68	studyblock16	nonlistitems9	5000	1331360	53	0	766	z = old                                    / = new
021419	12:38:16	68	studyblock13	nextlistmessage2	1000	1338959	0	0	1500	* * * * LIST 6 * * * *
021419	12:38:22	68	studyblock13	roughluremessage	1000	1344958	0	0	4500	critical lure:
021419	12:38:53	68	studyblock13	studytrial13	0	1375956	0	0	29500	roughlist.wav
021419	12:38:56	68	studyblock13	nonlistitems6	5000	1378322	53	0	2269	z = old                                    / = new
021419	12:39:01	68	studyblock13	nonlistitems6	5000	1384138	53	0	753	z = old                                    / = new
021419	12:39:08	68	studyblock13	listitems6	5000	1390654	44	0	1456	z = old                                    / = new
021419	12:39:14	68	studyblock13	nonlistitems6	5000	1396387	53	0	680	z = old                                    / = new
021419	12:39:20	68	studyblock13	listitems6	5000	1402353	44	0	913	z = old                                    / = new
021419	12:39:26	68	studyblock13	lures6	5000	1408453	53	0	1035	z = old                                    / = new
021419	12:39:32	68	studyblock13	listitems6	5000	1414785	44	0	1270	z = old                                    / = new
021419	12:39:40	68	studyblock15	nextlistmessage2	1000	1422385	0	0	1500	* * * * LIST 7 * * * *
021419	12:39:46	68	studyblock15	windowluremessage	1000	1428384	0	0	4500	critical lure:
021419	12:40:17	68	studyblock15	studytrial15	0	1459381	0	0	29500	windowlist.wav
021419	12:40:18	68	studyblock15	nonlistitems8	5000	1460781	53	0	1313	z = old                                    / = new
021419	12:40:24	68	studyblock15	nonlistitems8	5000	1466831	53	0	996	z = old                                    / = new
021419	12:40:30	68	studyblock15	nonlistitems8	5000	1472663	53	0	771	z = old                                    / = new
021419	12:40:37	68	studyblock15	lures8	5000	1479446	53	0	1726	z = old                                    / = new
021419	12:40:43	68	studyblock15	listitems8	5000	1485829	44	0	1321	z = old                                    / = new
021419	12:40:50	68	studyblock15	listitems8	5000	1492845	44	0	1961	z = old                                    / = new
021419	12:40:57	68	studyblock15	listitems8	5000	1499411	44	0	1514	z = old                                    / = new
021419	12:41:04	68	studyblock12	nextlistmessage2	1000	1507027	0	0	1500	* * * * LIST 8 * * * *
021419	12:41:10	68	studyblock12	trashluremessage	1000	1513026	0	0	4500	critical lure:
021419	12:41:41	68	studyblock12	studytrial12	0	1544024	0	0	29500	trashlist.wav
021419	12:41:44	68	studyblock12	lures5	5000	1547023	53	0	2913	z = old                                    / = new
021419	12:41:51	68	studyblock12	listitems5	5000	1553356	44	0	1272	z = old                                    / = new
021419	12:41:56	68	studyblock12	nonlistitems5	5000	1559189	53	0	771	z = old                                    / = new
021419	12:42:03	68	studyblock12	listitems5	5000	1565222	44	0	977	z = old                                    / = new
021419	12:42:09	68	studyblock12	nonlistitems5	5000	1571438	53	0	1159	z = old                                    / = new
021419	12:42:16	68	studyblock12	nonlistitems5	5000	1578670	53	0	2170	z = old                                    / = new
021419	12:42:25	68	studyblock12	listitems5	5000	1588086	53	1	4362	z = old                                    / = new
021419	12:43:50	68	readingpassage	readingpassage	0	1672228		1	69226	This passage is adapted from Emily Anthes, Frankenstein's Cat. ©2013 by Emily Anthes.    Retrieved from College Board 2015 SAT Practice Test #4    When scientists first learned how to edit the genomes of animals, they began to imagine all the ways they could use this new power. Creating brightly colored novelty pets was not a high priority. Instead, most researchers envisioned far more consequential applications, oping to create genetically engineered animals that saved human lives. One enterprise is now delivering on this dream. Welcome to the world of “pharming,” in which simple genetic tweaks turn animals into living pharmaceutical factories. Many of the proteins that our cells crank out naturally make for good medicine. Our bodies’ own enzymes, hormones, clotting factors, and antibodies are commonly used to treat cancer, diabetes, autoimmune diseases, and more. The trouble is that it’s difficult and expensive to make these compounds on an industrial scale, and as a result, patients can face shortages of the medicines they need. Dairy animals, on the other hand, are expert protein producers, their udders swollen with milk. So the creation of the first transgenic animals—first mice, then other species—in the 1980s gave scientists an idea: What if they put the gene for a human antibody or enzyme into a cow, goat, or sheep? If they put the gene in just the right place, under the control of the right molecular switch, maybe they could engineer animals that produced healing human proteins in their milk. Then doctors could collect medicine by the bucketful. Throughout the 1980s and ’90s, studies provided proof of principle, as scientists created transgenic mice, sheep, goats, pigs, cattle, and rabbits that did in fact make therapeutic compounds in their milk. At first, this work was merely gee-whiz, scientific geekery, lab-bound thought experiments come true. That all changed with ATryn, a drug produced by the Massachusetts firm GTC Biotherapeutics.
021419	12:44:50	68	readingpassage	readingpassage2	0	1732640		1	60373	ATryn is antithrombin, an anticoagulant that can be used to prevent life-threatening blood clots. The compound, made by our liver cells, plays a key role in keeping our bodies clot-free. It acts as a molecular bouncer, sidling up to clot-forming compounds and escorting them out of the bloodstream. But as many as 1 in 2,000 Americans are born with a genetic mutation that prevents them from making antithrombin. These patients are prone to clots, especially in their legs and lungs, and they are at elevated risk of suffering from fatal complications during surgery and childbirth. Supplemental antithrombin can reduce this risk, and GTC decided to try to manufacture the compound using genetically engineered goats. To create its special herd of goats, GTC used microinjection, the same technique that produced GloFish and AquAdvantage salmon. The company’s scientists took the gene for human antithrombin and injected it directly into fertilized goat eggs. Then they implanted the eggs in the wombs of female goats. When the kids were born, some of them proved to be transgenic, the human gene nestled safely in their cells. The researchers paired the antithrombin gene with a promoter (which is a sequence of DNA that controls gene activity) that is normally active in the goat’s mammary glands during milk production. When the transgenic females lactated, the promoter turned the transgene on and the goats’ udders filled with milk containing antithrombin. All that was left to do was to collect the milk, and extract and purify the protein. Et voilà—human medicine! And, for GTC, liquid gold. ATryn hit the market in 2006, becoming the world’s first transgenic animal drug. Over the course of a year, the “milking parlors” on GTC’s 300-acre farm in Massachusetts can collect more than a kilogram of medicine from a single animal.
021419	12:46:27	68	test	test	0	1829981	0	0	5000	0
021419	12:46:28	68	test	test2	0	1830497	0	0	500	6
021419	12:46:42	68	SurveyQuestions	NeedforCognition	0	1844496	8	0	6509	I would prefer complex to simple problems.
021419	12:46:46	68	SurveyQuestions	NeedforCognition	0	1848513	8	0	3961	I like to have the responsibility of handling a situation that requires a lot of thinking.
021419	12:47:00	68	SurveyQuestions	NeedforCognition	0	1862411	1	0	13819	Thinking is not my idea of fun.
021419	12:47:11	68	SurveyQuestions	NeedforCognition	0	1874010	3	0	11530	I would rather do something that requires little thought than something that is sure to challenge my thinking abilities.
021419	12:47:21	68	SurveyQuestions	NeedforCognition	0	1884192	3	0	10103	I try to anticipate and avoid situations where there is likely a chance I will have to think in depth about something.
021419	12:47:36	68	SurveyQuestions	NeedforCognition	0	1898491	6	0	14214	I find satisfaction in deliberating hard and for long hours.
021419	12:47:41	68	SurveyQuestions	NeedforCognition	0	1903607	1	0	5039	I only think as hard as I have to.
021419	12:47:47	68	SurveyQuestions	NeedforCognition	0	1909340	3	0	5667	I prefer to think about small, daily projects to long-term ones.
021419	12:47:52	68	SurveyQuestions	NeedforCognition	0	1914406	2	0	4983	I like tasks that require little thought once I’ve learned them.
021419	12:47:57	68	SurveyQuestions	NeedforCognition	0	1920156	9	0	5662	The idea of relying on thought to make my way to the top appeals to me.
021419	12:48:00	68	SurveyQuestions	NeedforCognition	0	1923039	9	0	2822	I really enjoy a task that involves coming up with new solutions to problems.
021419	12:48:05	68	SurveyQuestions	NeedforCognition	0	1927855	3	0	4737	Learning new ways to think doesn’t excite me very much.
021419	12:48:09	68	SurveyQuestions	NeedforCognition	0	1932155	7	0	4216	I prefer my life to be filled with puzzles that I must solve.
021419	12:48:13	68	SurveyQuestions	NeedforCognition	0	1935771	8	0	3545	The notion of thinking abstractly is appealing to me.
021419	12:48:20	68	SurveyQuestions	NeedforCognition	0	1942954	8	0	7094	I would prefer a task that is intellectual, difficult, and important to one that is somewhat important but does not require much thought.
021419	12:48:28	68	SurveyQuestions	NeedforCognition	0	1950336	1	0	7299	I feel relief rather than satisfaction after completing a task that required a lot of mental effort.
021419	12:48:33	68	SurveyQuestions	NeedforCognition	0	1955686	3	0	5275	It’s enough for me that something gets the job done; I don’t care how or why it works.
021419	12:48:42	68	SurveyQuestions	NeedforCognition	0	1964785	6	0	9017	I usually end up deliberating about issues even when they do not affect me personally.
021419	12:48:55	68	SurveyQuestions	sex	0	1978150	Male	1	13276	0
021419	12:48:55	68	SurveyQuestions	age	0	1978151	19	1	13276	0
021419	12:48:55	68	SurveyQuestions	handedness	0	1978151	Right	1	13276	0
021419	12:48:55	68	SurveyQuestions	education	0	1978151	Junior	1	13276	0
021419	12:48:55	68	SurveyQuestions	ethnicity	0	1978151	White	1	13276	0
